<?xml version="1.0" encoding="ISO-8859-1" ?>
<?xml-stylesheet type="text/xsl" href="define1-0-0.xsl"?>
<!-- ******************************************************************************* -->
<!-- File: define.xml                                                                -->
<!-- Date: 26JAN2013                                                                -->
<!-- Description: Define.xml file for XYZ123                          -->
<!-- ******************************************************************************* -->
<ODM
  xmlns="http://www.cdisc.org/ns/odm/v1.2"
  xmlns:xsi="http://www.w3.org/2001/XMLSchema-instance"
  xmlns:xlink="http://www.w3.org/1999/xlink"
  xmlns:def="http://www.cdisc.org/ns/def/v1.0"
  xsi:schemaLocation="http://www.cdisc.org/ns/odm/v1.2 define1-0-0.xsd"
  FileOID="XYZ123"
  ODMVersion="1.2"
  FileType="Snapshot"
  CreationDateTime="2013-01-26T13:27:53">
<Study OID="123">
  <GlobalVariables>
    <StudyName>XYZ123</StudyName>
    <StudyDescription>A PHASE IIB, DOUBLE-BLIND, MULTI-CENTER, PLACEBO CONTROLLED, PARALLEL GROUP TRIAL OF ANALGEZIA HCL FOR THE TREATMENT OF CHRONIC PAIN</StudyDescription>
    <ProtocolName>XYZ123</ProtocolName>
  </GlobalVariables>
  <MetaDataVersion OID="CDISC.SDTM.3.1.2"
    Name="XYZ123,Data Definitions"
    Description="XYZ123,Data Definitions"
    def:DefineVersion="1.0.0"
    def:StandardName="CDISC SDTM"
    def:StandardVersion="3.1.2">
    <def:AnnotatedCRF>
      <def:DocumentRef leafID="blankcrf"/>
    </def:AnnotatedCRF>
    <def:leaf ID="blankcrf" xlink:href="blankcrf.pdf">
      <def:title>Annotated Case Report Form</def:title>
    </def:leaf>
    <!-- ******************************************* -->
    <!-- COMPUTATIONAL METHOD INFORMATION        *** -->
    <!-- ******************************************* -->
    <def:ComputationMethod OID="AGECALCULATION">integer value of (BRTHDT - RFSTDTC)/365.25</def:ComputationMethod>
    <!-- ******************************************* -->
    <!-- VALUE LEVEL LIST DEFINITION INFORMATION  ** -->
    <!-- ******************************************* -->
    <def:ValueListDef OID="LBTESTCDVALUE">
      <ItemRef ItemOID="LBTESTCDVALUE.ALB"
        Mandatory="No"/>
      <ItemRef ItemOID="LBTESTCDVALUE.ALP"
        Mandatory="No"/>
      <ItemRef ItemOID="LBTESTCDVALUE.ALT"
        Mandatory="No"/>
      <ItemRef ItemOID="LBTESTCDVALUE.AST"
        Mandatory="No"/>
      <ItemRef ItemOID="LBTESTCDVALUE.BILDIR"
        Mandatory="No"/>
      <ItemRef ItemOID="LBTESTCDVALUE.BILI"
        Mandatory="No"/>
      <ItemRef ItemOID="LBTESTCDVALUE.GGT"
        Mandatory="No"/>
      <ItemRef ItemOID="LBTESTCDVALUE.HCT"
        Mandatory="No"/>
      <ItemRef ItemOID="LBTESTCDVALUE.HGB"
        Mandatory="No"/>
      <ItemRef ItemOID="LBTESTCDVALUE.PROT"
        Mandatory="No"/>
    </def:ValueListDef>
    <!-- ******************************************* -->
    <!-- AE             ItemGroupDef INFORMATION *** -->
    <!-- ******************************************* -->
    <ItemGroupDef OID="AE"
      Name="AE"
      Repeating="Yes"
      Purpose="Tabulation"
      IsReferenceData="No"
      def:Label="Adverse Events"
      def:Structure="Events - One record per event per subject"
      def:DomainKeys="STUDYID, USUBJID, AEDECOD, AESTDTC"
      def:Class="Events"
      def:ArchiveLocationID="Location../ae">
      <ItemRef ItemOID="STUDYID"
        OrderNumber="1"
        Mandatory="Yes"
        Role="Identifier"
        RoleCodeListOID="CodeList.ROLECODE"/>
      <ItemRef ItemOID="DOMAIN"
        OrderNumber="2"
        Mandatory="Yes"
        Role="Identifier"
        RoleCodeListOID="CodeList.ROLECODE"/>
      <ItemRef ItemOID="USUBJID"
        OrderNumber="3"
        Mandatory="Yes"
        Role="Identifier"
        RoleCodeListOID="CodeList.ROLECODE"/>
      <ItemRef ItemOID="AE.AESEQ"
        OrderNumber="4"
        Mandatory="Yes"
        Role="Identifier"
        RoleCodeListOID="CodeList.ROLECODE"/>
      <ItemRef ItemOID="AE.AETERM"
        OrderNumber="5"
        Mandatory="Yes"
        Role="Topic"
        RoleCodeListOID="CodeList.ROLECODE"/>
      <ItemRef ItemOID="AE.AEDECOD"
        OrderNumber="6"
        Mandatory="Yes"
        Role="Synonym Qualifier"
        RoleCodeListOID="CodeList.ROLECODE"/>
      <ItemRef ItemOID="AE.AEBODSYS"
        OrderNumber="7"
        Mandatory="No"
        Role="Record Qualifier"
        RoleCodeListOID="CodeList.ROLECODE"/>
      <ItemRef ItemOID="AE.AESEV"
        OrderNumber="8"
        Mandatory="No"
        Role="Record Qualifier"
        RoleCodeListOID="CodeList.ROLECODE"/>
      <ItemRef ItemOID="AE.AESER"
        OrderNumber="9"
        Mandatory="No"
        Role="Record Qualifier"
        RoleCodeListOID="CodeList.ROLECODE"/>
      <ItemRef ItemOID="AE.AEACN"
        OrderNumber="10"
        Mandatory="No"
        Role="Record Qualifier"
        RoleCodeListOID="CodeList.ROLECODE"/>
      <ItemRef ItemOID="AE.AEREL"
        OrderNumber="11"
        Mandatory="No"
        Role="Record Qualifier"
        RoleCodeListOID="CodeList.ROLECODE"/>
      <ItemRef ItemOID="AE.AESTDTC"
        OrderNumber="12"
        Mandatory="No"
        Role="Timing"
        RoleCodeListOID="CodeList.ROLECODE"/>
      <ItemRef ItemOID="AE.AEENDTC"
        OrderNumber="13"
        Mandatory="No"
        Role="Timing"
        RoleCodeListOID="CodeList.ROLECODE"/>
      <ItemRef ItemOID="AE.AESTDY"
        OrderNumber="14"
        Mandatory="No"
        Role="Timing"
        RoleCodeListOID="CodeList.ROLECODE"/>
      <ItemRef ItemOID="AE.AEENDY"
        OrderNumber="15"
        Mandatory="No"
        Role="Timing"
        RoleCodeListOID="CodeList.ROLECODE"/>
      <!-- **************************************************** -->
      <!-- def:leaf details for hypertext linking the dataset   -->
      <!-- **************************************************** -->
      <def:leaf ID="Location.AE" xlink:href="./ae.xpt">
        <def:title>./ae.xpt </def:title>
      </def:leaf>
    </ItemGroupDef>
    <!-- ******************************************* -->
    <!-- DM             ItemGroupDef INFORMATION *** -->
    <!-- ******************************************* -->
    <ItemGroupDef OID="DM"
      Name="DM"
      Repeating="No"
      Purpose="Tabulation "
      IsReferenceData="No"
      def:Label="Demographics"
      def:Structure="Special Purpose - One record per event per subject"
      def:DomainKeys="STUDYID, USUBJID"
      def:Class="Special Purpose"
      def:ArchiveLocationID="Location../dm">
      <ItemRef ItemOID="STUDYID"
        OrderNumber="1"
        Mandatory="Yes"
        Role="Identifier"
        RoleCodeListOID="CodeList.ROLECODE"/>
      <ItemRef ItemOID="DOMAIN"
        OrderNumber="2"
        Mandatory="Yes"
        Role="Identifier"
        RoleCodeListOID="CodeList.ROLECODE"/>
      <ItemRef ItemOID="USUBJID"
        OrderNumber="3"
        Mandatory="Yes"
        Role="Identifier"
        RoleCodeListOID="CodeList.ROLECODE"/>
      <ItemRef ItemOID="SUBJID"
        OrderNumber="4"
        Mandatory="Yes"
        Role="Identifier"
        RoleCodeListOID="CodeList.ROLECODE"/>
      <ItemRef ItemOID="DM.RFSTDTC"
        OrderNumber="5"
        Mandatory="No"
        Role="Record Qualifier"
        RoleCodeListOID="CodeList.ROLECODE"/>
      <ItemRef ItemOID="DM.RFENDTC"
        OrderNumber="6"
        Mandatory="No"
        Role="Record Qualifier"
        RoleCodeListOID="CodeList.ROLECODE"/>
      <ItemRef ItemOID="DM.SITEID"
        OrderNumber="7"
        Mandatory="Yes"
        Role="Record Qualifier"
        RoleCodeListOID="CodeList.ROLECODE"/>
      <ItemRef ItemOID="DM.BRTHDTC"
        OrderNumber="8"
        Mandatory="No"
        Role="Record Qualifier"
        RoleCodeListOID="CodeList.ROLECODE"/>
      <ItemRef ItemOID="DM.AGE"
        OrderNumber="9"
        Mandatory="No"
        Role="Record Qualifier"
        RoleCodeListOID="CodeList.ROLECODE"/>
      <ItemRef ItemOID="DM.AGEU"
        OrderNumber="10"
        Mandatory="No"
        Role="Variable Qualifier"
        RoleCodeListOID="CodeList.ROLECODE"/>
      <ItemRef ItemOID="DM.SEX"
        OrderNumber="11"
        Mandatory="Yes"
        Role="Record Qualifier"
        RoleCodeListOID="CodeList.ROLECODE"/>
      <ItemRef ItemOID="DM.RACE"
        OrderNumber="12"
        Mandatory="No"
        Role="Record Qualifier"
        RoleCodeListOID="CodeList.ROLECODE"/>
      <ItemRef ItemOID="DM.ARMCD"
        OrderNumber="13"
        Mandatory="Yes"
        Role="Record Qualifier"
        RoleCodeListOID="CodeList.ROLECODE"/>
      <ItemRef ItemOID="DM.ARM"
        OrderNumber="14"
        Mandatory="Yes"
        Role="Synonym Qualifier"
        RoleCodeListOID="CodeList.ROLECODE"/>
      <ItemRef ItemOID="DM.COUNTRY"
        OrderNumber="15"
        Mandatory="Yes"
        Role="Record Qualifier"
        RoleCodeListOID="CodeList.ROLECODE"/>
      <!-- **************************************************** -->
      <!-- def:leaf details for hypertext linking the dataset   -->
      <!-- **************************************************** -->
      <def:leaf ID="Location.DM" xlink:href="./dm.xpt">
        <def:title>./dm.xpt </def:title>
      </def:leaf>
    </ItemGroupDef>
    <!-- ******************************************* -->
    <!-- EX             ItemGroupDef INFORMATION *** -->
    <!-- ******************************************* -->
    <ItemGroupDef OID="EX"
      Name="EX"
      Repeating="Yes"
      Purpose="Tabulation "
      IsReferenceData="No"
      def:Label="Exposure"
      def:Structure="One record per constant dosing interval per subject"
      def:DomainKeys="STUDYID, USUBJID, EXTRT, EXSTDTC"
      def:Class="Interventions"
      def:ArchiveLocationID="Location../ex">
      <ItemRef ItemOID="STUDYID"
        OrderNumber="1"
        Mandatory="Yes"
        Role="Identifier"
        RoleCodeListOID="CodeList.ROLECODE"/>
      <ItemRef ItemOID="DOMAIN"
        OrderNumber="2"
        Mandatory="Yes"
        Role="Identifier"
        RoleCodeListOID="CodeList.ROLECODE"/>
      <ItemRef ItemOID="USUBJID"
        OrderNumber="3"
        Mandatory="Yes"
        Role="Identifier"
        RoleCodeListOID="CodeList.ROLECODE"/>
      <ItemRef ItemOID="EX.EXSEQ"
        OrderNumber="4"
        Mandatory="Yes"
        Role="Identifier"
        RoleCodeListOID="CodeList.ROLECODE"/>
      <ItemRef ItemOID="EX.EXTRT"
        OrderNumber="5"
        Mandatory="Yes"
        Role="Topic"
        RoleCodeListOID="CodeList.ROLECODE"/>
      <ItemRef ItemOID="EX.EXDOSE"
        OrderNumber="6"
        Mandatory="No"
        Role="Record Qualifier"
        RoleCodeListOID="CodeList.ROLECODE"/>
      <ItemRef ItemOID="EX.EXDOSU"
        OrderNumber="7"
        Mandatory="No"
        Role="Variable Qualifier"
        RoleCodeListOID="CodeList.ROLECODE"/>
      <ItemRef ItemOID="EX.EXDOSFRM"
        OrderNumber="8"
        Mandatory="No"
        Role="Record Qualifier"
        RoleCodeListOID="CodeList.ROLECODE"/>
      <ItemRef ItemOID="EX.EXDOSTOT"
        OrderNumber="9"
        Mandatory="No"
        Role="Record Qualifier"
        RoleCodeListOID="CodeList.ROLECODE"/>
      <ItemRef ItemOID="EX.EXSTDTC"
        OrderNumber="10"
        Mandatory="No"
        Role="Timing"
        RoleCodeListOID="CodeList.ROLECODE"/>
      <ItemRef ItemOID="EX.EXENDTC"
        OrderNumber="11"
        Mandatory="No"
        Role="Timing"
        RoleCodeListOID="CodeList.ROLECODE"/>
      <ItemRef ItemOID="EX.EXSTDY"
        OrderNumber="12"
        Mandatory="No"
        Role="Timing"
        RoleCodeListOID="CodeList.ROLECODE"/>
      <ItemRef ItemOID="EX.EXENDY"
        OrderNumber="13"
        Mandatory="No"
        Role="Timing"
        RoleCodeListOID="CodeList.ROLECODE"/>
      <!-- **************************************************** -->
      <!-- def:leaf details for hypertext linking the dataset   -->
      <!-- **************************************************** -->
      <def:leaf ID="Location.EX" xlink:href="./ex.xpt">
        <def:title>./ex.xpt </def:title>
      </def:leaf>
    </ItemGroupDef>
    <!-- ******************************************* -->
    <!-- LB             ItemGroupDef INFORMATION *** -->
    <!-- ******************************************* -->
    <ItemGroupDef OID="LB"
      Name="LB"
      Repeating="Yes"
      Purpose="Tabulation "
      IsReferenceData="No"
      def:Label="Laboratory Tests"
      def:Structure="Findings - One record per lab test per subject"
      def:DomainKeys="STUDYID, USUBJID, LBCAT, LBTESTCD, VISITNUM"
      def:Class="Findings"
      def:ArchiveLocationID="Location../lb">
      <ItemRef ItemOID="STUDYID"
        OrderNumber="1"
        Mandatory="Yes"
        Role="Identifier"
        RoleCodeListOID="CodeList.ROLECODE"/>
      <ItemRef ItemOID="DOMAIN"
        OrderNumber="2"
        Mandatory="Yes"
        Role="Identifier"
        RoleCodeListOID="CodeList.ROLECODE"/>
      <ItemRef ItemOID="USUBJID"
        OrderNumber="3"
        Mandatory="Yes"
        Role="Identifier"
        RoleCodeListOID="CodeList.ROLECODE"/>
      <ItemRef ItemOID="LB.LBSEQ"
        OrderNumber="4"
        Mandatory="Yes"
        Role="Identifier"
        RoleCodeListOID="CodeList.ROLECODE"/>
      <ItemRef ItemOID="LB.LBTESTCD"
        OrderNumber="5"
        Mandatory="Yes"
        Role="Topic"
        RoleCodeListOID="CodeList.ROLECODE"/>
      <ItemRef ItemOID="LB.LBTEST"
        OrderNumber="6"
        Mandatory="Yes"
        Role="Synonym Qualifier"
        RoleCodeListOID="CodeList.ROLECODE"/>
      <ItemRef ItemOID="LB.LBCAT"
        OrderNumber="7"
        Mandatory="No"
        Role="Grouping Qualifier"
        RoleCodeListOID="CodeList.ROLECODE"/>
      <ItemRef ItemOID="LB.LBORRES"
        OrderNumber="8"
        Mandatory="No"
        Role="Result Qualifier"
        RoleCodeListOID="CodeList.ROLECODE"/>
      <ItemRef ItemOID="LB.LBORRESU"
        OrderNumber="9"
        Mandatory="No"
        Role="Variable Qualifier"
        RoleCodeListOID="CodeList.ROLECODE"/>
      <ItemRef ItemOID="LB.LBORNRLO"
        OrderNumber="10"
        Mandatory="No"
        Role="Variable Qualifier"
        RoleCodeListOID="CodeList.ROLECODE"/>
      <ItemRef ItemOID="LB.LBORNRHI"
        OrderNumber="11"
        Mandatory="No"
        Role="Variable Qualifier"
        RoleCodeListOID="CodeList.ROLECODE"/>
      <ItemRef ItemOID="LB.LBSTRESC"
        OrderNumber="12"
        Mandatory="No"
        Role="Result Qualifier"
        RoleCodeListOID="CodeList.ROLECODE"/>
      <ItemRef ItemOID="LB.LBSTRESN"
        OrderNumber="13"
        Mandatory="No"
        Role="Result Qualifier"
        RoleCodeListOID="CodeList.ROLECODE"/>
      <ItemRef ItemOID="LB.LBSTRESU"
        OrderNumber="14"
        Mandatory="No"
        Role="Variable Qualifier"
        RoleCodeListOID="CodeList.ROLECODE"/>
      <ItemRef ItemOID="LB.LBSTNRLO"
        OrderNumber="15"
        Mandatory="No"
        Role="Variable Qualifier"
        RoleCodeListOID="CodeList.ROLECODE"/>
      <ItemRef ItemOID="LB.LBSTNRHI"
        OrderNumber="16"
        Mandatory="No"
        Role="Variable Qualifier"
        RoleCodeListOID="CodeList.ROLECODE"/>
      <ItemRef ItemOID="LB.LBNRIND"
        OrderNumber="17"
        Mandatory="No"
        Role="Variable Qualifier"
        RoleCodeListOID="CodeList.ROLECODE"/>
      <ItemRef ItemOID="LB.LBBLFL"
        OrderNumber="18"
        Mandatory="No"
        Role="Record Qualifier"
        RoleCodeListOID="CodeList.ROLECODE"/>
      <ItemRef ItemOID="LB.VISITNUM"
        OrderNumber="19"
        Mandatory="No"
        Role="Timing"
        RoleCodeListOID="CodeList.ROLECODE"/>
      <ItemRef ItemOID="LB.VISIT"
        OrderNumber="20"
        Mandatory="No"
        Role="Timing"
        RoleCodeListOID="CodeList.ROLECODE"/>
      <ItemRef ItemOID="LB.LBDTC"
        OrderNumber="21"
        Mandatory="No"
        Role="Timing"
        RoleCodeListOID="CodeList.ROLECODE"/>
      <ItemRef ItemOID="LB.LBDY"
        OrderNumber="22"
        Mandatory="No"
        Role="Timing"
        RoleCodeListOID="CodeList.ROLECODE"/>
      <!-- **************************************************** -->
      <!-- def:leaf details for hypertext linking the dataset   -->
      <!-- **************************************************** -->
      <def:leaf ID="Location.LB" xlink:href="./lb.xpt">
        <def:title>./lb.xpt </def:title>
      </def:leaf>
    </ItemGroupDef>
    <!-- ******************************************* -->
    <!-- SUPPDM         ItemGroupDef INFORMATION *** -->
    <!-- ******************************************* -->
    <ItemGroupDef OID="SUPPDM"
      Name="SUPPDM"
      Repeating="Yes"
      Purpose="Tabulation"
      IsReferenceData="No"
      def:Label="DM - Supplemental Qualifiers"
      def:Structure="Supplemental Qualifier - One record per qualifier"
      def:DomainKeys="STUDYID, RDOMAIN, USUBJID, IDVAR, IDVARVAL, QNAM"
      def:Class="Supplemental Qualifier"
      def:ArchiveLocationID="Location../suppdm">
      <ItemRef ItemOID="STUDYID"
        OrderNumber="1"
        Mandatory="Yes"/>
      <ItemRef ItemOID="SUPPDM.RDOMAIN"
        OrderNumber="2"
        Mandatory="Yes"/>
      <ItemRef ItemOID="USUBJID"
        OrderNumber="3"
        Mandatory="Yes"/>
      <ItemRef ItemOID="SUPPDM.IDVAR"
        OrderNumber="4"
        Mandatory="No"/>
      <ItemRef ItemOID="SUPPDM.IDVARVAL"
        OrderNumber="5"
        Mandatory="No"/>
      <ItemRef ItemOID="SUPPDM.QNAM"
        OrderNumber="6"
        Mandatory="Yes"/>
      <ItemRef ItemOID="SUPPDM.QLABEL"
        OrderNumber="7"
        Mandatory="Yes"/>
      <ItemRef ItemOID="SUPPDM.QVAL"
        OrderNumber="8"
        Mandatory="Yes"/>
      <ItemRef ItemOID="SUPPDM.QORIG"
        OrderNumber="9"
        Mandatory="Yes"/>
      <ItemRef ItemOID="SUPPDM.QEVAL"
        OrderNumber="10"
        Mandatory="No"/>
      <!-- **************************************************** -->
      <!-- def:leaf details for hypertext linking the dataset   -->
      <!-- **************************************************** -->
      <def:leaf ID="Location.SUPPDM" xlink:href="./suppdm.xpt">
        <def:title>./suppdm.xpt </def:title>
      </def:leaf>
    </ItemGroupDef>
    <!-- ******************************************* -->
    <!-- TA             ItemGroupDef INFORMATION *** -->
    <!-- ******************************************* -->
    <ItemGroupDef OID="TA"
      Name="TA"
      Repeating="Yes"
      Purpose="Tabulation "
      IsReferenceData="Yes"
      def:Label="Trial Arms"
      def:Structure="One record per planned Element per Arm"
      def:DomainKeys="STUDYID, ARMCD, TAETORD"
      def:Class="Trial Design"
      def:ArchiveLocationID="Location../ta">
      <ItemRef ItemOID="STUDYID"
        OrderNumber="1"
        Mandatory="Yes"
        Role="Identifier"
        RoleCodeListOID="CodeList.ROLECODE"/>
      <ItemRef ItemOID="DOMAIN"
        OrderNumber="2"
        Mandatory="Yes"
        Role="Identifier"
        RoleCodeListOID="CodeList.ROLECODE"/>
      <ItemRef ItemOID="TA.ARMCD"
        OrderNumber="3"
        Mandatory="Yes"
        Role="Topic"
        RoleCodeListOID="CodeList.ROLECODE"/>
      <ItemRef ItemOID="TA.ARM"
        OrderNumber="4"
        Mandatory="Yes"
        Role="Synonym Qualifier"
        RoleCodeListOID="CodeList.ROLECODE"/>
      <ItemRef ItemOID="TA.TAETORD"
        OrderNumber="5"
        Mandatory="Yes"
        Role="Identifier"
        RoleCodeListOID="CodeList.ROLECODE"/>
      <ItemRef ItemOID="TA.ETCD"
        OrderNumber="6"
        Mandatory="Yes"
        Role="Record Qualifier"
        RoleCodeListOID="CodeList.ROLECODE"/>
      <ItemRef ItemOID="TA.ELEMENT"
        OrderNumber="7"
        Mandatory="No"
        Role="Synonym Qualifier"
        RoleCodeListOID="CodeList.ROLECODE"/>
      <ItemRef ItemOID="TA.TABRANCH"
        OrderNumber="8"
        Mandatory="No"
        Role="Rule"
        RoleCodeListOID="CodeList.ROLECODE"/>
      <ItemRef ItemOID="TA.TATRANS"
        OrderNumber="9"
        Mandatory="No"
        Role="Rule"
        RoleCodeListOID="CodeList.ROLECODE"/>
      <ItemRef ItemOID="TA.EPOCH"
        OrderNumber="10"
        Mandatory="No"
        Role="Timing"
        RoleCodeListOID="CodeList.ROLECODE"/>
      <!-- **************************************************** -->
      <!-- def:leaf details for hypertext linking the dataset   -->
      <!-- **************************************************** -->
      <def:leaf ID="Location.TA" xlink:href="./ta.xpt">
        <def:title>./ta.xpt </def:title>
      </def:leaf>
    </ItemGroupDef>
    <!-- ******************************************* -->
    <!-- TE             ItemGroupDef INFORMATION *** -->
    <!-- ******************************************* -->
    <ItemGroupDef OID="TE"
      Name="TE"
      Repeating="Yes"
      Purpose="Tabulation "
      IsReferenceData="Yes"
      def:Label="Trial Elements"
      def:Structure="One record per planned Element"
      def:DomainKeys="STUDYID, ETCD"
      def:Class="Trial Design"
      def:ArchiveLocationID="Location../te">
      <ItemRef ItemOID="STUDYID"
        OrderNumber="1"
        Mandatory="Yes"
        Role="Identifier"
        RoleCodeListOID="CodeList.ROLECODE"/>
      <ItemRef ItemOID="DOMAIN"
        OrderNumber="2"
        Mandatory="Yes"
        Role="Identifier"
        RoleCodeListOID="CodeList.ROLECODE"/>
      <ItemRef ItemOID="TE.ETCD"
        OrderNumber="3"
        Mandatory="Yes"
        Role="Topic"
        RoleCodeListOID="CodeList.ROLECODE"/>
      <ItemRef ItemOID="TE.ELEMENT"
        OrderNumber="4"
        Mandatory="Yes"
        Role="Synonym Qualifier"
        RoleCodeListOID="CodeList.ROLECODE"/>
      <ItemRef ItemOID="TE.TESTRL"
        OrderNumber="5"
        Mandatory="Yes"
        Role="Rule"
        RoleCodeListOID="CodeList.ROLECODE"/>
      <ItemRef ItemOID="TE.TEENRL"
        OrderNumber="6"
        Mandatory="No"
        Role="Rule"
        RoleCodeListOID="CodeList.ROLECODE"/>
      <ItemRef ItemOID="TE.TEDUR"
        OrderNumber="7"
        Mandatory="No"
        Role="Timing"
        RoleCodeListOID="CodeList.ROLECODE"/>
      <!-- **************************************************** -->
      <!-- def:leaf details for hypertext linking the dataset   -->
      <!-- **************************************************** -->
      <def:leaf ID="Location.TE" xlink:href="./te.xpt">
        <def:title>./te.xpt </def:title>
      </def:leaf>
    </ItemGroupDef>
    <!-- ******************************************* -->
    <!-- TI             ItemGroupDef INFORMATION *** -->
    <!-- ******************************************* -->
    <ItemGroupDef OID="TI"
      Name="TI"
      Repeating="Yes"
      Purpose="Tabulation "
      IsReferenceData="Yes"
      def:Label="Trial Inclusion/Exclusion Criteria"
      def:Structure="One record per I/E criterion"
      def:DomainKeys="STUDYID, IETESTCD"
      def:Class="Trial Design"
      def:ArchiveLocationID="Location../ti">
      <ItemRef ItemOID="STUDYID"
        OrderNumber="1"
        Mandatory="Yes"
        Role="Identifier"
        RoleCodeListOID="CodeList.ROLECODE"/>
      <ItemRef ItemOID="DOMAIN"
        OrderNumber="2"
        Mandatory="Yes"
        Role="Identifier"
        RoleCodeListOID="CodeList.ROLECODE"/>
      <ItemRef ItemOID="TI.IETESTCD"
        OrderNumber="3"
        Mandatory="Yes"
        Role="Topic"
        RoleCodeListOID="CodeList.ROLECODE"/>
      <ItemRef ItemOID="TI.IETEST"
        OrderNumber="4"
        Mandatory="Yes"
        Role="Synonym Qualifier"
        RoleCodeListOID="CodeList.ROLECODE"/>
      <ItemRef ItemOID="TI.IECAT"
        OrderNumber="5"
        Mandatory="Yes"
        Role="Grouping Qualifier"
        RoleCodeListOID="CodeList.ROLECODE"/>
      <ItemRef ItemOID="TI.IESCAT"
        OrderNumber="6"
        Mandatory="No"
        Role="Grouping Qualifier"
        RoleCodeListOID="CodeList.ROLECODE"/>
      <ItemRef ItemOID="TI.TIRL"
        OrderNumber="7"
        Mandatory="No"
        Role="Rule"
        RoleCodeListOID="CodeList.ROLECODE"/>
      <ItemRef ItemOID="TI.TIVERS"
        OrderNumber="8"
        Mandatory="No"
        Role="Record Qualifier"
        RoleCodeListOID="CodeList.ROLECODE"/>
      <!-- **************************************************** -->
      <!-- def:leaf details for hypertext linking the dataset   -->
      <!-- **************************************************** -->
      <def:leaf ID="Location.TI" xlink:href="./ti.xpt">
        <def:title>./ti.xpt </def:title>
      </def:leaf>
    </ItemGroupDef>
    <!-- ******************************************* -->
    <!-- TS             ItemGroupDef INFORMATION *** -->
    <!-- ******************************************* -->
    <ItemGroupDef OID="TS"
      Name="TS"
      Repeating="Yes"
      Purpose="Tabulation "
      IsReferenceData="Yes"
      def:Label="Trial Summary"
      def:Structure="One record per trial summary parameter value"
      def:DomainKeys="STUDYID, TSSEQ"
      def:Class="Trial Design"
      def:ArchiveLocationID="Location../ts">
      <ItemRef ItemOID="STUDYID"
        OrderNumber="1"
        Mandatory="Yes"
        Role="Identifier"
        RoleCodeListOID="CodeList.ROLECODE"/>
      <ItemRef ItemOID="DOMAIN"
        OrderNumber="2"
        Mandatory="Yes"
        Role="Identifier"
        RoleCodeListOID="CodeList.ROLECODE"/>
      <ItemRef ItemOID="TS.TSSEQ"
        OrderNumber="3"
        Mandatory="Yes"
        Role="Identifier"
        RoleCodeListOID="CodeList.ROLECODE"/>
      <ItemRef ItemOID="TS.TSGRPID"
        OrderNumber="4"
        Mandatory="No"
        Role="Identifier"
        RoleCodeListOID="CodeList.ROLECODE"/>
      <ItemRef ItemOID="TS.TSPARMCD"
        OrderNumber="5"
        Mandatory="Yes"
        Role="Topic"
        RoleCodeListOID="CodeList.ROLECODE"/>
      <ItemRef ItemOID="TS.TSPARM"
        OrderNumber="6"
        Mandatory="Yes"
        Role="Synonym Qualifier"
        RoleCodeListOID="CodeList.ROLECODE"/>
      <ItemRef ItemOID="TS.TSVAL"
        OrderNumber="7"
        Mandatory="Yes"
        Role="Result Qualifier"
        RoleCodeListOID="CodeList.ROLECODE"/>
      <!-- **************************************************** -->
      <!-- def:leaf details for hypertext linking the dataset   -->
      <!-- **************************************************** -->
      <def:leaf ID="Location.TS" xlink:href="./ts.xpt">
        <def:title>./ts.xpt </def:title>
      </def:leaf>
    </ItemGroupDef>
    <!-- ******************************************* -->
    <!-- TV             ItemGroupDef INFORMATION *** -->
    <!-- ******************************************* -->
    <ItemGroupDef OID="TV"
      Name="TV"
      Repeating="Yes"
      Purpose="Tabulation "
      IsReferenceData="Yes"
      def:Label="Trial Visits"
      def:Structure="One record per planned Visit per Arm"
      def:DomainKeys="STUDYID, VISITNUM, ARMCD"
      def:Class="Trial Design"
      def:ArchiveLocationID="Location../tv">
      <ItemRef ItemOID="STUDYID"
        OrderNumber="1"
        Mandatory="Yes"
        Role="Identifier"
        RoleCodeListOID="CodeList.ROLECODE"/>
      <ItemRef ItemOID="DOMAIN"
        OrderNumber="2"
        Mandatory="Yes"
        Role="Identifier"
        RoleCodeListOID="CodeList.ROLECODE"/>
      <ItemRef ItemOID="TV.VISITNUM"
        OrderNumber="3"
        Mandatory="Yes"
        Role="Topic"
        RoleCodeListOID="CodeList.ROLECODE"/>
      <ItemRef ItemOID="TV.VISIT"
        OrderNumber="4"
        Mandatory="No"
        Role="Synonym Qualifier"
        RoleCodeListOID="CodeList.ROLECODE"/>
      <ItemRef ItemOID="TV.ARMCD"
        OrderNumber="5"
        Mandatory="No"
        Role="Record Qualifier"
        RoleCodeListOID="CodeList.ROLECODE"/>
      <ItemRef ItemOID="TV.ARM"
        OrderNumber="6"
        Mandatory="No"
        Role="Synonym Qualifier"
        RoleCodeListOID="CodeList.ROLECODE"/>
      <ItemRef ItemOID="TV.TVSTRL"
        OrderNumber="7"
        Mandatory="Yes"
        Role="Rule"
        RoleCodeListOID="CodeList.ROLECODE"/>
      <ItemRef ItemOID="TV.TVENRL"
        OrderNumber="8"
        Mandatory="No"
        Role="Rule"
        RoleCodeListOID="CodeList.ROLECODE"/>
      <!-- **************************************************** -->
      <!-- def:leaf details for hypertext linking the dataset   -->
      <!-- **************************************************** -->
      <def:leaf ID="Location.TV" xlink:href="./tv.xpt">
        <def:title>./tv.xpt </def:title>
      </def:leaf>
    </ItemGroupDef>
    <!-- ******************************************* -->
    <!-- XP             ItemGroupDef INFORMATION *** -->
    <!-- ******************************************* -->
    <ItemGroupDef OID="XP"
      Name="XP"
      Repeating="Yes"
      Purpose="Tabulation"
      IsReferenceData="No"
      def:Label="Pain Scores"
      def:Structure="One record per subject per visit"
      def:DomainKeys="STUDYID, USUBJID, XPTESTCD, VISITNUM"
      def:Class="Findings"
      def:ArchiveLocationID="Location../xp">
      <ItemRef ItemOID="STUDYID"
        OrderNumber="1"
        Mandatory="Yes"
        Role="Identifier"
        RoleCodeListOID="CodeList.ROLECODE"/>
      <ItemRef ItemOID="DOMAIN"
        OrderNumber="2"
        Mandatory="Yes"
        Role="Identifier"
        RoleCodeListOID="CodeList.ROLECODE"/>
      <ItemRef ItemOID="USUBJID"
        OrderNumber="3"
        Mandatory="Yes"
        Role="Identifier"
        RoleCodeListOID="CodeList.ROLECODE"/>
      <ItemRef ItemOID="XP.XPSEQ"
        OrderNumber="4"
        Mandatory="Yes"
        Role="Identifier"
        RoleCodeListOID="CodeList.ROLECODE"/>
      <ItemRef ItemOID="XP.XPTESTCD"
        OrderNumber="5"
        Mandatory="Yes"
        Role="Topic"
        RoleCodeListOID="CodeList.ROLECODE"/>
      <ItemRef ItemOID="XP.XPTEST"
        OrderNumber="6"
        Mandatory="Yes"
        Role="Synonym Qualifier"
        RoleCodeListOID="CodeList.ROLECODE"/>
      <ItemRef ItemOID="XP.XPORRES"
        OrderNumber="7"
        Mandatory="No"
        Role="Result Qualifier"
        RoleCodeListOID="CodeList.ROLECODE"/>
      <ItemRef ItemOID="XP.XPSTRESC"
        OrderNumber="8"
        Mandatory="No"
        Role="Result Qualifier"
        RoleCodeListOID="CodeList.ROLECODE"/>
      <ItemRef ItemOID="XP.XPSTRESN"
        OrderNumber="9"
        Mandatory="No"
        Role="Result Qualifier"
        RoleCodeListOID="CodeList.ROLECODE"/>
      <ItemRef ItemOID="XP.VISITNUM"
        OrderNumber="10"
        Mandatory="No"
        Role="Timing"
        RoleCodeListOID="CodeList.ROLECODE"/>
      <ItemRef ItemOID="XP.VISIT"
        OrderNumber="11"
        Mandatory="No"
        Role="Timing"
        RoleCodeListOID="CodeList.ROLECODE"/>
      <ItemRef ItemOID="XP.XPDTC"
        OrderNumber="12"
        Mandatory="No"
        Role="Timing"
        RoleCodeListOID="CodeList.ROLECODE"/>
      <ItemRef ItemOID="XP.XPDY"
        OrderNumber="13"
        Mandatory="No"
        Role="Timing"
        RoleCodeListOID="CodeList.ROLECODE"/>
      <!-- **************************************************** -->
      <!-- def:leaf details for hypertext linking the dataset   -->
      <!-- **************************************************** -->
      <def:leaf ID="Location.XP" xlink:href="./xp.xpt">
        <def:title>./xp.xpt </def:title>
      </def:leaf>
    </ItemGroupDef>
    <!-- ************************************************************ -->
    <!-- The details of each variable is here for all domains         -->
    <!-- ************************************************************ -->
    <ItemDef OID="STUDYID"
      Name="STUDYID"
      DataType="text"
      Length="15"
      Origin="Derived"
      Comment=" "
      def:Label="Study Identifier">
    </ItemDef>
    <ItemDef OID="DOMAIN"
      Name="DOMAIN"
      DataType="text"
      Length="2"
      Origin="Derived"
      Comment=" "
      def:Label="Domain Abbreviation">
    </ItemDef>
    <ItemDef OID="USUBJID"
      Name="USUBJID"
      DataType="text"
      Length="25"
      Origin="Derived"
      Comment=" "
      def:Label="Unique Subject Identifier">
    </ItemDef>
    <ItemDef OID="AE.AESEQ"
      Name="AESEQ"
      DataType="integer"
      Length="8"
      Origin="Derived"
      Comment=" "
      def:Label="Sequence Number">
    </ItemDef>
    <ItemDef OID="AE.AETERM"
      Name="AETERM"
      DataType="text"
      Length="200"
      Origin="CRF page 6"
      Comment=" "
      def:Label="Reported Term for the Adverse Event">
    </ItemDef>
    <ItemDef OID="AE.AEDECOD"
      Name="AEDECOD"
      DataType="text"
      Length="200"
      Origin="Derived"
      Comment=" "
      def:Label="Dictionary-Derived Term">
      <CodeListRef CodeListOID="CodeList.AEDECOD"/>
    </ItemDef>
    <ItemDef OID="AE.AEBODSYS"
      Name="AEBODSYS"
      DataType="text"
      Length="200"
      Origin="Derived"
      Comment=" "
      def:Label="Body System or Organ Class">
      <CodeListRef CodeListOID="CodeList.AEBODSYS"/>
    </ItemDef>
    <ItemDef OID="AE.AESEV"
      Name="AESEV"
      DataType="text"
      Length="40"
      Origin="CRF page 6"
      Comment=" "
      def:Label="Severity/Intensity">
      <CodeListRef CodeListOID="CodeList.AESEV"/>
    </ItemDef>
    <ItemDef OID="AE.AESER"
      Name="AESER"
      DataType="text"
      Length="40"
      Origin="CRF page 6"
      Comment=" "
      def:Label="Serious Event">
      <CodeListRef CodeListOID="CodeList.NY"/>
    </ItemDef>
    <ItemDef OID="AE.AEACN"
      Name="AEACN"
      DataType="text"
      Length="40"
      Origin="CRF page 6"
      Comment=" "
      def:Label="Action Taken with Study Treatment">
      <CodeListRef CodeListOID="CodeList.ACN"/>
    </ItemDef>
    <ItemDef OID="AE.AEREL"
      Name="AEREL"
      DataType="text"
      Length="40"
      Origin="CRF page 6"
      Comment=" "
      def:Label="Causality">
      <CodeListRef CodeListOID="CodeList.AEREL"/>
    </ItemDef>
    <ItemDef OID="AE.AESTDTC"
      Name="AESTDTC"
      DataType="date"
      Length="16"
      Origin="CRF page 6"
      Comment=" "
      def:Label="Start Date/Time of Adverse Event">
    </ItemDef>
    <ItemDef OID="AE.AEENDTC"
      Name="AEENDTC"
      DataType="date"
      Length="16"
      Origin="CRF page 6"
      Comment=" "
      def:Label="End Date/Time of Adverse Event">
    </ItemDef>
    <ItemDef OID="AE.AESTDY"
      Name="AESTDY"
      DataType="integer"
      Length="8"
      Origin="Derived"
      Comment=" "
      def:Label="Study Day of Start of Adverse Event">
    </ItemDef>
    <ItemDef OID="AE.AEENDY"
      Name="AEENDY"
      DataType="integer"
      Length="8"
      Origin="Derived"
      Comment=" "
      def:Label="Study Day of End of Adverse Event">
    </ItemDef>
    <ItemDef OID="STUDYID"
      Name="STUDYID"
      DataType="text"
      Length="15"
      Origin="Derived"
      Comment=" "
      def:Label="Study Identifier">
    </ItemDef>
    <ItemDef OID="DOMAIN"
      Name="DOMAIN"
      DataType="text"
      Length="2"
      Origin="Derived"
      Comment=" "
      def:Label="Domain Abbreviation">
    </ItemDef>
    <ItemDef OID="USUBJID"
      Name="USUBJID"
      DataType="text"
      Length="25"
      Origin="Derived"
      Comment=" "
      def:Label="Unique Subject Identifier">
    </ItemDef>
    <ItemDef OID="SUBJID"
      Name="SUBJID"
      DataType="text"
      Length="7"
      Origin="CRF page 1"
      Comment=" "
      def:Label="Subject Identifier for the Study">
    </ItemDef>
    <ItemDef OID="DM.RFSTDTC"
      Name="RFSTDTC"
      DataType="date"
      Length="16"
      Origin="CRF page 1"
      Comment=" "
      def:Label="Subject Reference Start Date/Time">
    </ItemDef>
    <ItemDef OID="DM.RFENDTC"
      Name="RFENDTC"
      DataType="date"
      Length="16"
      Origin="Derived"
      Comment=" "
      def:Label="Subject Reference End Date/Time">
    </ItemDef>
    <ItemDef OID="DM.SITEID"
      Name="SITEID"
      DataType="text"
      Length="7"
      Origin="CRF page 1"
      Comment=" "
      def:Label="Study Site Identifier">
    </ItemDef>
    <ItemDef OID="DM.BRTHDTC"
      Name="BRTHDTC"
      DataType="date"
      Length="16"
      Origin="CRF page 1"
      Comment=" "
      def:Label="Date/Time of Birth">
    </ItemDef>
    <ItemDef OID="DM.AGE"
      Name="AGE"
      DataType="integer"
      Length="8"
      def:DisplayFormat="3.0"
      def:ComputationMethodOID="AGECALCULATION"
      Origin="Derived"
      Comment=" "
      def:Label="Age">
    </ItemDef>
    <ItemDef OID="DM.AGEU"
      Name="AGEU"
      DataType="text"
      Length="5"
      Origin="Derived"
      Comment=" "
      def:Label="Age Units">
      <CodeListRef CodeListOID="CodeList.AGEU"/>
    </ItemDef>
    <ItemDef OID="DM.SEX"
      Name="SEX"
      DataType="text"
      Length="2"
      Origin="CRF page 1"
      Comment=" "
      def:Label="Sex">
      <CodeListRef CodeListOID="CodeList.SEX"/>
    </ItemDef>
    <ItemDef OID="DM.RACE"
      Name="RACE"
      DataType="text"
      Length="40"
      Origin="CRF page 1"
      Comment=" "
      def:Label="Race">
      <CodeListRef CodeListOID="CodeList.RACE"/>
    </ItemDef>
    <ItemDef OID="DM.ARMCD"
      Name="ARMCD"
      DataType="text"
      Length="8"
      Origin="IVRS data"
      Comment=" "
      def:Label="Planned Arm Code">
      <CodeListRef CodeListOID="CodeList.ARMCD"/>
    </ItemDef>
    <ItemDef OID="DM.ARM"
      Name="ARM"
      DataType="text"
      Length="40"
      Origin="IVRS data"
      Comment=" "
      def:Label="Description of Planned Arm">
      <CodeListRef CodeListOID="CodeList.ARM"/>
    </ItemDef>
    <ItemDef OID="DM.COUNTRY"
      Name="COUNTRY"
      DataType="text"
      Length="3"
      Origin="Derived"
      Comment=" "
      def:Label="Country">
      <CodeListRef CodeListOID="CodeList.COUNTRY"/>
    </ItemDef>
    <ItemDef OID="STUDYID"
      Name="STUDYID"
      DataType="text"
      Length="15"
      Origin="Derived"
      Comment=" "
      def:Label="Study Identifier">
    </ItemDef>
    <ItemDef OID="DOMAIN"
      Name="DOMAIN"
      DataType="text"
      Length="2"
      Origin="Derived"
      Comment=" "
      def:Label="Domain Abbreviation">
    </ItemDef>
    <ItemDef OID="USUBJID"
      Name="USUBJID"
      DataType="text"
      Length="25"
      Origin="Derived"
      Comment=" "
      def:Label="Unique Subject Identifier">
    </ItemDef>
    <ItemDef OID="EX.EXSEQ"
      Name="EXSEQ"
      DataType="integer"
      Length="8"
      Origin="Derived"
      Comment=" "
      def:Label="Sequence Number">
    </ItemDef>
    <ItemDef OID="EX.EXTRT"
      Name="EXTRT"
      DataType="text"
      Length="40"
      Origin="Derived"
      Comment=" "
      def:Label="Name of Actual Treatment">
    </ItemDef>
    <ItemDef OID="EX.EXDOSE"
      Name="EXDOSE"
      DataType="integer"
      Length="8"
      Origin="CRF Page 4"
      Comment=" "
      def:Label="Dose per Administration">
    </ItemDef>
    <ItemDef OID="EX.EXDOSU"
      Name="EXDOSU"
      DataType="text"
      Length="40"
      Origin="Derived"
      Comment=" "
      def:Label="Dose Units">
      <CodeListRef CodeListOID="CodeList.UNIT"/>
    </ItemDef>
    <ItemDef OID="EX.EXDOSFRM"
      Name="EXDOSFRM"
      DataType="text"
      Length="40"
      Origin="Derived"
      Comment=" "
      def:Label="Dose Form">
      <CodeListRef CodeListOID="CodeList.FRM"/>
    </ItemDef>
    <ItemDef OID="EX.EXDOSTOT"
      Name="EXDOSTOT"
      DataType="integer"
      Length="8"
      Origin="CRF Page 4"
      Comment=" "
      def:Label="Total Daily Dose">
    </ItemDef>
    <ItemDef OID="EX.EXSTDTC"
      Name="EXSTDTC"
      DataType="date"
      Length="16"
      Origin="CRF Page 4"
      Comment=" "
      def:Label="Start Date/Time of Treatment">
    </ItemDef>
    <ItemDef OID="EX.EXENDTC"
      Name="EXENDTC"
      DataType="date"
      Length="16"
      Origin="CRF Page 4"
      Comment=" "
      def:Label="End Date/Time of Treatment">
    </ItemDef>
    <ItemDef OID="EX.EXSTDY"
      Name="EXSTDY"
      DataType="integer"
      Length="8"
      Origin="Derived"
      Comment=" "
      def:Label="Study Day of Start of Treatment">
    </ItemDef>
    <ItemDef OID="EX.EXENDY"
      Name="EXENDY"
      DataType="integer"
      Length="8"
      Origin="Derived"
      Comment=" "
      def:Label="Study Day of End of Treatment">
    </ItemDef>
    <ItemDef OID="STUDYID"
      Name="STUDYID"
      DataType="text"
      Length="15"
      Origin="Derived"
      Comment=" "
      def:Label="Study Identifier">
    </ItemDef>
    <ItemDef OID="DOMAIN"
      Name="DOMAIN"
      DataType="text"
      Length="2"
      Origin="Derived"
      Comment=" "
      def:Label="Domain Abbreviation">
    </ItemDef>
    <ItemDef OID="USUBJID"
      Name="USUBJID"
      DataType="text"
      Length="25"
      Origin="Derived"
      Comment=" "
      def:Label="Unique Subject Identifier">
    </ItemDef>
    <ItemDef OID="LB.LBSEQ"
      Name="LBSEQ"
      DataType="integer"
      Length="8"
      Origin="Derived"
      Comment=" "
      def:Label="Sequence Number">
    </ItemDef>
    <ItemDef OID="LB.LBTESTCD"
      Name="LBTESTCD"
      DataType="text"
      Length="8"
      Origin="Derived"
      Comment=" "
      def:Label="Lab Test or Examination Short Name">
      <CodeListRef CodeListOID="CodeList.LBTESTCD"/>
      <def:ValueListRef ValueListOID="LBTESTCDVALUE"/>
    </ItemDef>
    <ItemDef OID="LB.LBTEST"
      Name="LBTEST"
      DataType="text"
      Length="40"
      Origin="Derived"
      Comment=" "
      def:Label="Lab Test or Examination Name">
      <CodeListRef CodeListOID="CodeList.LBTEST"/>
    </ItemDef>
    <ItemDef OID="LB.LBCAT"
      Name="LBCAT"
      DataType="text"
      Length="200"
      Origin="Derived"
      Comment=" "
      def:Label="Category for Lab Test">
      <CodeListRef CodeListOID="CodeList.LBCAT"/>
    </ItemDef>
    <ItemDef OID="LB.LBORRES"
      Name="LBORRES"
      DataType="text"
      Length="200"
      Origin="Central laboratory"
      Comment=" "
      def:Label="Result or Finding in Original Units">
    </ItemDef>
    <ItemDef OID="LB.LBORRESU"
      Name="LBORRESU"
      DataType="text"
      Length="200"
      Origin="Central laboratory"
      Comment=" "
      def:Label="Original Units">
      <CodeListRef CodeListOID="CodeList.UNIT"/>
    </ItemDef>
    <ItemDef OID="LB.LBORNRLO"
      Name="LBORNRLO"
      DataType="text"
      Length="200"
      Origin="Central laboratory"
      Comment=" "
      def:Label="Reference Range Lower Limit in Orig Unit">
    </ItemDef>
    <ItemDef OID="LB.LBORNRHI"
      Name="LBORNRHI"
      DataType="text"
      Length="200"
      Origin="Central laboratory"
      Comment=" "
      def:Label="Reference Range Upper Limit in Orig Unit">
    </ItemDef>
    <ItemDef OID="LB.LBSTRESC"
      Name="LBSTRESC"
      DataType="text"
      Length="200"
      Origin="Derived"
      Comment=" "
      def:Label="Character Result/Finding in Std Format">
    </ItemDef>
    <ItemDef OID="LB.LBSTRESN"
      Name="LBSTRESN"
      DataType="float"
      Length="8"
      Origin="Derived"
      Comment=" "
      def:Label="Numeric Result/Finding in Standard Units">
    </ItemDef>
    <ItemDef OID="LB.LBSTRESU"
      Name="LBSTRESU"
      DataType="text"
      Length="200"
      Origin="Derived"
      Comment=" "
      def:Label="Standard Units">
      <CodeListRef CodeListOID="CodeList.UNIT"/>
    </ItemDef>
    <ItemDef OID="LB.LBSTNRLO"
      Name="LBSTNRLO"
      DataType="float"
      Length="8"
      Origin="Derived"
      Comment=" "
      def:Label="Reference Range Lower Limit-Std Units">
    </ItemDef>
    <ItemDef OID="LB.LBSTNRHI"
      Name="LBSTNRHI"
      DataType="float"
      Length="8"
      Origin="Derived"
      Comment=" "
      def:Label="Reference Range Upper Limit-Std Units">
    </ItemDef>
    <ItemDef OID="LB.LBNRIND"
      Name="LBNRIND"
      DataType="text"
      Length="40"
      Origin="Derived"
      Comment=" "
      def:Label="Reference Range Indicator">
      <CodeListRef CodeListOID="CodeList.LBNRIND"/>
    </ItemDef>
    <ItemDef OID="LB.LBBLFL"
      Name="LBBLFL"
      DataType="text"
      Length="2"
      Origin="Derived"
      Comment=" "
      def:Label="Baseline Flag">
      <CodeListRef CodeListOID="CodeList.NY"/>
    </ItemDef>
    <ItemDef OID="LB.VISITNUM"
      Name="VISITNUM"
      DataType="integer"
      Length="8"
      Origin="Derived"
      Comment=" "
      def:Label="Visit Number">
    </ItemDef>
    <ItemDef OID="LB.VISIT"
      Name="VISIT"
      DataType="text"
      Length="200"
      Origin="Central laboratory"
      Comment=" "
      def:Label="Visit Name">
      <CodeListRef CodeListOID="CodeList.VISIT"/>
    </ItemDef>
    <ItemDef OID="LB.LBDTC"
      Name="LBDTC"
      DataType="date"
      Length="16"
      Origin="Central laboratory"
      Comment=" "
      def:Label="Date/Time of Specimen Collection">
    </ItemDef>
    <ItemDef OID="LB.LBDY"
      Name="LBDY"
      DataType="integer"
      Length="8"
      Origin="Derived"
      Comment=" "
      def:Label="Study Day of Specimen Collection">
    </ItemDef>
    <ItemDef OID="STUDYID"
      Name="STUDYID"
      DataType="text"
      Length="15"
      Origin="Derived"
      Comment=" "
      def:Label="Study Identifier">
    </ItemDef>
    <ItemDef OID="SUPPDM.RDOMAIN"
      Name="RDOMAIN"
      DataType="text"
      Length="2"
      Origin="Derived"
      Comment=" "
      def:Label="Related Domain Abbreviation">
    </ItemDef>
    <ItemDef OID="USUBJID"
      Name="USUBJID"
      DataType="text"
      Length="25"
      Origin="Derived"
      Comment=" "
      def:Label="Unique Subject Identifier">
    </ItemDef>
    <ItemDef OID="SUPPDM.IDVAR"
      Name="IDVAR"
      DataType="text"
      Length="8"
      Origin="Derived"
      Comment=" "
      def:Label="Identifying Variable">
    </ItemDef>
    <ItemDef OID="SUPPDM.IDVARVAL"
      Name="IDVARVAL"
      DataType="text"
      Length="200"
      Origin="Derived"
      Comment=" "
      def:Label="Identifying Variable Value">
    </ItemDef>
    <ItemDef OID="SUPPDM.QNAM"
      Name="QNAM"
      DataType="text"
      Length="8"
      Origin="Derived"
      Comment=" "
      def:Label="Qualifier Variable Name">
    </ItemDef>
    <ItemDef OID="SUPPDM.QLABEL"
      Name="QLABEL"
      DataType="text"
      Length="40"
      Origin="Derived"
      Comment=" "
      def:Label="Qualifier Variable Label">
    </ItemDef>
    <ItemDef OID="SUPPDM.QVAL"
      Name="QVAL"
      DataType="text"
      Length="200"
      Origin="CRF Page 1"
      Comment=" "
      def:Label="Data Value">
    </ItemDef>
    <ItemDef OID="SUPPDM.QORIG"
      Name="QORIG"
      DataType="text"
      Length="8"
      Origin="Derived"
      Comment=" "
      def:Label="Origin">
    </ItemDef>
    <ItemDef OID="SUPPDM.QEVAL"
      Name="QEVAL"
      DataType="text"
      Length="8"
      Origin="Derived"
      Comment=" "
      def:Label="Evaluator">
    </ItemDef>
    <ItemDef OID="STUDYID"
      Name="STUDYID"
      DataType="text"
      Length="15"
      Origin="Derived"
      Comment=" "
      def:Label="Study Identifier">
    </ItemDef>
    <ItemDef OID="DOMAIN"
      Name="DOMAIN"
      DataType="text"
      Length="2"
      Origin="Derived"
      Comment=" "
      def:Label="Domain Abbreviation">
    </ItemDef>
    <ItemDef OID="TA.ARMCD"
      Name="ARMCD"
      DataType="text"
      Length="8"
      Origin="Derived"
      Comment=" "
      def:Label="Planned Arm Code">
      <CodeListRef CodeListOID="CodeList.ARMCD"/>
    </ItemDef>
    <ItemDef OID="TA.ARM"
      Name="ARM"
      DataType="text"
      Length="40"
      Origin="Derived"
      Comment=" "
      def:Label="Description of Planned Arm">
      <CodeListRef CodeListOID="CodeList.ARM"/>
    </ItemDef>
    <ItemDef OID="TA.TAETORD"
      Name="TAETORD"
      DataType="integer"
      Length="8"
      Origin="Derived"
      Comment=" "
      def:Label="Order of Element within Arm">
    </ItemDef>
    <ItemDef OID="TA.ETCD"
      Name="ETCD"
      DataType="text"
      Length="8"
      Origin="Derived"
      Comment=" "
      def:Label="Element Code">
    </ItemDef>
    <ItemDef OID="TA.ELEMENT"
      Name="ELEMENT"
      DataType="text"
      Length="40"
      Origin="Derived"
      Comment=" "
      def:Label="Description of Element">
    </ItemDef>
    <ItemDef OID="TA.TABRANCH"
      Name="TABRANCH"
      DataType="text"
      Length="200"
      Origin="Derived"
      Comment=" "
      def:Label="Branch">
    </ItemDef>
    <ItemDef OID="TA.TATRANS"
      Name="TATRANS"
      DataType="text"
      Length="200"
      Origin="Derived"
      Comment=" "
      def:Label="Transition Rule">
    </ItemDef>
    <ItemDef OID="TA.EPOCH"
      Name="EPOCH"
      DataType="text"
      Length="200"
      Origin="Derived"
      Comment=" "
      def:Label="Epoch">
    </ItemDef>
    <ItemDef OID="STUDYID"
      Name="STUDYID"
      DataType="text"
      Length="15"
      Origin="Derived"
      Comment=" "
      def:Label="Study Identifier">
    </ItemDef>
    <ItemDef OID="DOMAIN"
      Name="DOMAIN"
      DataType="text"
      Length="2"
      Origin="Derived"
      Comment=" "
      def:Label="Domain Abbreviation">
    </ItemDef>
    <ItemDef OID="TE.ETCD"
      Name="ETCD"
      DataType="text"
      Length="8"
      Origin="Derived"
      Comment=" "
      def:Label="Element Code">
    </ItemDef>
    <ItemDef OID="TE.ELEMENT"
      Name="ELEMENT"
      DataType="text"
      Length="40"
      Origin="Derived"
      Comment=" "
      def:Label="Description of Element">
    </ItemDef>
    <ItemDef OID="TE.TESTRL"
      Name="TESTRL"
      DataType="text"
      Length="200"
      Origin="Derived"
      Comment=" "
      def:Label="Rule for Start of Element">
    </ItemDef>
    <ItemDef OID="TE.TEENRL"
      Name="TEENRL"
      DataType="text"
      Length="200"
      Origin="Derived"
      Comment=" "
      def:Label="Rule for End of Element">
    </ItemDef>
    <ItemDef OID="TE.TEDUR"
      Name="TEDUR"
      DataType="text"
      Length="40"
      Origin="Derived"
      Comment=" "
      def:Label="Planned Duration of Element">
    </ItemDef>
    <ItemDef OID="STUDYID"
      Name="STUDYID"
      DataType="text"
      Length="15"
      Origin="Derived"
      Comment=" "
      def:Label="Study Identifier">
    </ItemDef>
    <ItemDef OID="DOMAIN"
      Name="DOMAIN"
      DataType="text"
      Length="2"
      Origin="Derived"
      Comment=" "
      def:Label="Domain Abbreviation">
    </ItemDef>
    <ItemDef OID="TI.IETESTCD"
      Name="IETESTCD"
      DataType="text"
      Length="8"
      Origin="Derived"
      Comment=" "
      def:Label="Incl/Excl Criterion Short Name">
    </ItemDef>
    <ItemDef OID="TI.IETEST"
      Name="IETEST"
      DataType="text"
      Length="200"
      Origin="Derived"
      Comment=" "
      def:Label="Inclusion/Exclusion Criterion">
    </ItemDef>
    <ItemDef OID="TI.IECAT"
      Name="IECAT"
      DataType="text"
      Length="200"
      Origin="Derived"
      Comment=" "
      def:Label="Inclusion/Exclusion Category">
      <CodeListRef CodeListOID="CodeList.IECAT"/>
    </ItemDef>
    <ItemDef OID="TI.IESCAT"
      Name="IESCAT"
      DataType="text"
      Length="200"
      Origin="Derived"
      Comment=" "
      def:Label="Inclusion/Exclusion Subcategory">
    </ItemDef>
    <ItemDef OID="TI.TIRL"
      Name="TIRL"
      DataType="text"
      Length="200"
      Origin="Derived"
      Comment=" "
      def:Label="Inclusion/Exclusion Criterion Rule">
    </ItemDef>
    <ItemDef OID="TI.TIVERS"
      Name="TIVERS"
      DataType="text"
      Length="200"
      Origin="Derived"
      Comment=" "
      def:Label="Protocol Criteria Versions">
    </ItemDef>
    <ItemDef OID="STUDYID"
      Name="STUDYID"
      DataType="text"
      Length="15"
      Origin="Derived"
      Comment=" "
      def:Label="Study Identifier">
    </ItemDef>
    <ItemDef OID="DOMAIN"
      Name="DOMAIN"
      DataType="text"
      Length="2"
      Origin="Derived"
      Comment=" "
      def:Label="Domain Abbreviation">
    </ItemDef>
    <ItemDef OID="TS.TSSEQ"
      Name="TSSEQ"
      DataType="integer"
      Length="8"
      Origin="Derived"
      Comment=" "
      def:Label="Sequence Number ">
    </ItemDef>
    <ItemDef OID="TS.TSGRPID"
      Name="TSGRPID"
      DataType="text"
      Length="40"
      Origin="Derived"
      Comment=" "
      def:Label="Group ID">
    </ItemDef>
    <ItemDef OID="TS.TSPARMCD"
      Name="TSPARMCD"
      DataType="text"
      Length="8"
      Origin="Derived"
      Comment=" "
      def:Label="Trial Summary Parameter Short Name">
      <CodeListRef CodeListOID="CodeList.TSPARMCD"/>
    </ItemDef>
    <ItemDef OID="TS.TSPARM"
      Name="TSPARM"
      DataType="text"
      Length="200"
      Origin="Derived"
      Comment=" "
      def:Label="Trial Summary Parameter ">
      <CodeListRef CodeListOID="CodeList.TSPARM"/>
    </ItemDef>
    <ItemDef OID="TS.TSVAL"
      Name="TSVAL"
      DataType="text"
      Length="200"
      Origin="Derived"
      Comment=" "
      def:Label="Parameter Value">
    </ItemDef>
    <ItemDef OID="STUDYID"
      Name="STUDYID"
      DataType="text"
      Length="15"
      Origin="Derived"
      Comment=" "
      def:Label="Study Identifier">
    </ItemDef>
    <ItemDef OID="DOMAIN"
      Name="DOMAIN"
      DataType="text"
      Length="2"
      Origin="Derived"
      Comment=" "
      def:Label="Domain Abbreviation">
    </ItemDef>
    <ItemDef OID="TV.VISITNUM"
      Name="VISITNUM"
      DataType="integer"
      Length="8"
      Origin="Derived"
      Comment=" "
      def:Label="Visit Number">
    </ItemDef>
    <ItemDef OID="TV.VISIT"
      Name="VISIT"
      DataType="text"
      Length="200"
      Origin="Derived"
      Comment=" "
      def:Label="Visit Name">
    </ItemDef>
    <ItemDef OID="TV.ARMCD"
      Name="ARMCD"
      DataType="text"
      Length="8"
      Origin="Derived"
      Comment=" "
      def:Label="Planned Arm Code">
      <CodeListRef CodeListOID="CodeList.ARMCD"/>
    </ItemDef>
    <ItemDef OID="TV.ARM"
      Name="ARM"
      DataType="text"
      Length="40"
      Origin="Derived"
      Comment=" "
      def:Label="Description of Planned Arm">
      <CodeListRef CodeListOID="CodeList.ARM"/>
    </ItemDef>
    <ItemDef OID="TV.TVSTRL"
      Name="TVSTRL"
      DataType="text"
      Length="200"
      Origin="Derived"
      Comment=" "
      def:Label="Visit Start Rule">
    </ItemDef>
    <ItemDef OID="TV.TVENRL"
      Name="TVENRL"
      DataType="text"
      Length="200"
      Origin="Derived"
      Comment=" "
      def:Label="Visit End Rule">
    </ItemDef>
    <ItemDef OID="STUDYID"
      Name="STUDYID"
      DataType="text"
      Length="15"
      Origin="Derived"
      Comment=" "
      def:Label="Study Identifier">
    </ItemDef>
    <ItemDef OID="DOMAIN"
      Name="DOMAIN"
      DataType="text"
      Length="2"
      Origin="Derived"
      Comment=" "
      def:Label="Domain Abbreviation">
    </ItemDef>
    <ItemDef OID="USUBJID"
      Name="USUBJID"
      DataType="text"
      Length="25"
      Origin="Derived"
      Comment=" "
      def:Label="Unique Subject Identifier">
    </ItemDef>
    <ItemDef OID="XP.XPSEQ"
      Name="XPSEQ"
      DataType="integer"
      Length="8"
      Origin="Derived"
      Comment=" "
      def:Label="Sequence Number">
    </ItemDef>
    <ItemDef OID="XP.XPTESTCD"
      Name="XPTESTCD"
      DataType="text"
      Length="8"
      Origin="Derived"
      Comment=" "
      def:Label="Pain Test Short Name">
      <CodeListRef CodeListOID="CodeList.XPTESTCD"/>
    </ItemDef>
    <ItemDef OID="XP.XPTEST"
      Name="XPTEST"
      DataType="text"
      Length="40"
      Origin="Derived"
      Comment=" "
      def:Label="Pain Test Name">
      <CodeListRef CodeListOID="CodeList.XPTEST"/>
    </ItemDef>
    <ItemDef OID="XP.XPORRES"
      Name="XPORRES"
      DataType="text"
      Length="200"
      Origin="CRF Page 5"
      Comment=" "
      def:Label="Result or Finding in Original Units">
    </ItemDef>
    <ItemDef OID="XP.XPSTRESC"
      Name="XPSTRESC"
      DataType="text"
      Length="200"
      Origin="Derived"
      Comment=" "
      def:Label="Result or Finding in Standard Format">
    </ItemDef>
    <ItemDef OID="XP.XPSTRESN"
      Name="XPSTRESN"
      DataType="integer"
      Length="8"
      Origin="Derived"
      Comment=" "
      def:Label="Numeric Result/Finding in Standard Units">
    </ItemDef>
    <ItemDef OID="XP.VISITNUM"
      Name="VISITNUM"
      DataType="integer"
      Length="8"
      Origin="Derived"
      Comment=" "
      def:Label="Visit Number">
    </ItemDef>
    <ItemDef OID="XP.VISIT"
      Name="VISIT"
      DataType="text"
      Length="200"
      Origin="CRF Page 5"
      Comment=" "
      def:Label="Visit Name">
      <CodeListRef CodeListOID="CodeList.VISIT"/>
    </ItemDef>
    <ItemDef OID="XP.XPDTC"
      Name="XPDTC"
      DataType="date"
      Length="16"
      Origin="CRF Page 5"
      Comment=" "
      def:Label="Date/Time of  Collection">
    </ItemDef>
    <ItemDef OID="XP.XPDY"
      Name="XPDY"
      DataType="integer"
      Length="8"
      Origin="Derived"
      Comment=" "
      def:Label="Study Day of  Collection">
    </ItemDef>
    <!-- ************************************************************ -->
    <!-- The details of value level items are here                    -->
    <!-- ************************************************************ -->
    <ItemDef OID="LBTESTCDVALUE.ALB"
      Name="ALB"
      DataType="float"
      Length="8"
      SignificantDigitis="1"
      def:DisplayFormat="4.2"
      Origin="Central laboratory"
      Comment=" "
      def:Label="Albumin; Microalbumin">
    </ItemDef>
    <ItemDef OID="LBTESTCDVALUE.ALP"
      Name="ALP"
      DataType="float"
      Length="8"
      def:DisplayFormat="3."
      Origin="Central laboratory"
      Comment=" "
      def:Label="Alkaline Phosphatase">
    </ItemDef>
    <ItemDef OID="LBTESTCDVALUE.ALT"
      Name="ALT"
      DataType="float"
      Length="8"
      def:DisplayFormat="3."
      Origin="Central laboratory"
      Comment=" "
      def:Label="Alanine Aminotransferase; SGPT">
    </ItemDef>
    <ItemDef OID="LBTESTCDVALUE.AST"
      Name="AST"
      DataType="float"
      Length="8"
      def:DisplayFormat="3."
      Origin="Central laboratory"
      Comment=" "
      def:Label="Aspartate Aminotransferase; SGOT">
    </ItemDef>
    <ItemDef OID="LBTESTCDVALUE.BILDIR"
      Name="BILDIR"
      DataType="float"
      Length="8"
      SignificantDigitis="1"
      def:DisplayFormat="4.2"
      Origin="Central laboratory"
      Comment=" "
      def:Label="Direct Bilirubin">
    </ItemDef>
    <ItemDef OID="LBTESTCDVALUE.BILI"
      Name="BILI"
      DataType="float"
      Length="8"
      SignificantDigitis="1"
      def:DisplayFormat="4.2"
      Origin="Central laboratory"
      Comment=" "
      def:Label="Bilirubin; Total Bilirubin">
    </ItemDef>
    <ItemDef OID="LBTESTCDVALUE.GGT"
      Name="GGT"
      DataType="float"
      Length="8"
      def:DisplayFormat="3."
      Origin="Central laboratory"
      Comment=" "
      def:Label="Gamma Glutamyl Transferase">
    </ItemDef>
    <ItemDef OID="LBTESTCDVALUE.HCT"
      Name="HCT"
      DataType="float"
      Length="8"
      def:DisplayFormat="3."
      Origin="Central laboratory"
      Comment=" "
      def:Label="Hematocrit">
    </ItemDef>
    <ItemDef OID="LBTESTCDVALUE.HGB"
      Name="HGB"
      DataType="float"
      Length="8"
      SignificantDigitis="1"
      def:DisplayFormat="5.2"
      Origin="Central laboratory"
      Comment=" "
      def:Label="Hemoglobin">
    </ItemDef>
    <ItemDef OID="LBTESTCDVALUE.PROT"
      Name="PROT"
      DataType="float"
      Length="8"
      SignificantDigitis="1"
      def:DisplayFormat="4.2"
      Origin="Central laboratory"
      Comment=" "
      def:Label="Protein">
    </ItemDef>
    <!-- ************************************************************ -->
    <!-- Codelists are presented below                                -->
    <!-- ************************************************************ -->
    <CodeList OID="CodeList.ACN"
      Name="ACN"
      DataType="TEXT">
      <CodeListItem CodedValue="DOSE INCREASED" def:Rank="1">
        <Decode>
          <TranslatedText>DOSE INCREASED</TranslatedText>
        </Decode>
      </CodeListItem>
      <CodeListItem CodedValue="DOSE NOT CHANGED" def:Rank="2">
        <Decode>
          <TranslatedText>DOSE NOT CHANGED</TranslatedText>
        </Decode>
      </CodeListItem>
      <CodeListItem CodedValue="DOSE REDUCED" def:Rank="3">
        <Decode>
          <TranslatedText>DOSE REDUCED</TranslatedText>
        </Decode>
      </CodeListItem>
      <CodeListItem CodedValue="DRUG INTERRUPTED" def:Rank="4">
        <Decode>
          <TranslatedText>DRUG INTERRUPTED</TranslatedText>
        </Decode>
      </CodeListItem>
      <CodeListItem CodedValue="DRUG WITHDRAWN" def:Rank="5">
        <Decode>
          <TranslatedText>DRUG WITHDRAWN</TranslatedText>
        </Decode>
      </CodeListItem>
      <CodeListItem CodedValue="NOT APPLICABLE" def:Rank="6">
        <Decode>
          <TranslatedText>NA</TranslatedText>
        </Decode>
      </CodeListItem>
      <CodeListItem CodedValue="UNKNOWN" def:Rank="7">
        <Decode>
          <TranslatedText>U; Unknown</TranslatedText>
        </Decode>
      </CodeListItem>
    </CodeList>
    <CodeList OID="CodeList.AEBODSYS"
      Name="AEBODSYS"
      DataType="TEXT">
      <ExternalCodeList Dictionary="MedDRA" Version="7.0"/>
    </CodeList>
    <CodeList OID="CodeList.AEDECOD"
      Name="AEDECOD"
      DataType="TEXT">
      <ExternalCodeList Dictionary="MedDRA" Version="7.0"/>
    </CodeList>
    <CodeList OID="CodeList.AEREL"
      Name="AEREL"
      DataType="TEXT">
      <CodeListItem CodedValue="NOT RELATED" def:Rank="1">
        <Decode>
          <TranslatedText>NOT RELATED</TranslatedText>
        </Decode>
      </CodeListItem>
      <CodeListItem CodedValue="POSSIBLY RELATED" def:Rank="2">
        <Decode>
          <TranslatedText>POSSIBLY RELATED</TranslatedText>
        </Decode>
      </CodeListItem>
      <CodeListItem CodedValue="PROBABLY RELATED" def:Rank="3">
        <Decode>
          <TranslatedText>PROBABLY RELATED</TranslatedText>
        </Decode>
      </CodeListItem>
    </CodeList>
    <CodeList OID="CodeList.AESEV"
      Name="AESEV"
      DataType="TEXT">
      <CodeListItem CodedValue="MILD" def:Rank="1">
        <Decode>
          <TranslatedText>Grade 1; 1</TranslatedText>
        </Decode>
      </CodeListItem>
      <CodeListItem CodedValue="MODERATE" def:Rank="2">
        <Decode>
          <TranslatedText>Grade 2; 2</TranslatedText>
        </Decode>
      </CodeListItem>
      <CodeListItem CodedValue="SEVERE" def:Rank="3">
        <Decode>
          <TranslatedText>Grade 3; 3</TranslatedText>
        </Decode>
      </CodeListItem>
    </CodeList>
    <CodeList OID="CodeList.AGEU"
      Name="AGEU"
      DataType="TEXT">
      <CodeListItem CodedValue="YEARS" def:Rank="1">
        <Decode>
          <TranslatedText>YEARS</TranslatedText>
        </Decode>
      </CodeListItem>
    </CodeList>
    <CodeList OID="CodeList.ARM"
      Name="ARM"
      DataType="TEXT">
      <CodeListItem CodedValue="Analgezia HCL 30 mg" def:Rank="1">
        <Decode>
          <TranslatedText>Analgezia HCL 30 mg</TranslatedText>
        </Decode>
      </CodeListItem>
      <CodeListItem CodedValue="Placebo" def:Rank="2">
        <Decode>
          <TranslatedText>Placebo</TranslatedText>
        </Decode>
      </CodeListItem>
    </CodeList>
    <CodeList OID="CodeList.ARMCD"
      Name="ARMCD"
      DataType="TEXT">
      <CodeListItem CodedValue="ALG123" def:Rank="1">
        <Decode>
          <TranslatedText>Analgezia HCL 30 mg</TranslatedText>
        </Decode>
      </CodeListItem>
      <CodeListItem CodedValue="PLACEBO" def:Rank="2">
        <Decode>
          <TranslatedText>Placebo</TranslatedText>
        </Decode>
      </CodeListItem>
    </CodeList>
    <CodeList OID="CodeList.COUNTRY"
      Name="COUNTRY"
      DataType="TEXT">
      <CodeListItem CodedValue="USA" def:Rank="1">
        <Decode>
          <TranslatedText>UNITED STATES</TranslatedText>
        </Decode>
      </CodeListItem>
    </CodeList>
    <CodeList OID="CodeList.FRM"
      Name="FRM"
      DataType="TEXT">
      <CodeListItem CodedValue="TABLET, COATED" def:Rank="1">
        <Decode>
          <TranslatedText>TABLET, COATED</TranslatedText>
        </Decode>
      </CodeListItem>
    </CodeList>
    <CodeList OID="CodeList.IECAT"
      Name="IECAT"
      DataType="TEXT">
      <CodeListItem CodedValue="INCLUSION" def:Rank="1">
        <Decode>
          <TranslatedText>INCLUSION</TranslatedText>
        </Decode>
      </CodeListItem>
      <CodeListItem CodedValue="EXCLUSION" def:Rank="2">
        <Decode>
          <TranslatedText>EXCLUSION</TranslatedText>
        </Decode>
      </CodeListItem>
    </CodeList>
    <CodeList OID="CodeList.LBCAT"
      Name="LBCAT"
      DataType="TEXT">
      <CodeListItem CodedValue="CHEMISTRY" def:Rank="1">
        <Decode>
          <TranslatedText>CHEMISTRY</TranslatedText>
        </Decode>
      </CodeListItem>
      <CodeListItem CodedValue="HEMATOLOGY" def:Rank="2">
        <Decode>
          <TranslatedText>HEMATOLOGY</TranslatedText>
        </Decode>
      </CodeListItem>
    </CodeList>
    <CodeList OID="CodeList.LBNRIND"
      Name="LBNRIND"
      DataType="TEXT">
      <CodeListItem CodedValue="HIGH" def:Rank="1">
        <Decode>
          <TranslatedText>HIGH</TranslatedText>
        </Decode>
      </CodeListItem>
      <CodeListItem CodedValue="LOW" def:Rank="2">
        <Decode>
          <TranslatedText>LOW</TranslatedText>
        </Decode>
      </CodeListItem>
      <CodeListItem CodedValue="NORMAL" def:Rank="3">
        <Decode>
          <TranslatedText>NORMAL</TranslatedText>
        </Decode>
      </CodeListItem>
    </CodeList>
    <CodeList OID="CodeList.LBTEST"
      Name="LBTEST"
      DataType="TEXT">
      <CodeListItem CodedValue="Alanine Aminotransferase; SGPT" def:Rank="1">
        <Decode>
          <TranslatedText>Alanine Aminotransferase; SGPT</TranslatedText>
        </Decode>
      </CodeListItem>
      <CodeListItem CodedValue="Protein" def:Rank="10">
        <Decode>
          <TranslatedText>Protein</TranslatedText>
        </Decode>
      </CodeListItem>
      <CodeListItem CodedValue="Albumin; Microalbumin" def:Rank="2">
        <Decode>
          <TranslatedText>Albumin; Microalbumin</TranslatedText>
        </Decode>
      </CodeListItem>
      <CodeListItem CodedValue="Alkaline Phosphatase" def:Rank="3">
        <Decode>
          <TranslatedText>Alkaline Phosphatase</TranslatedText>
        </Decode>
      </CodeListItem>
      <CodeListItem CodedValue="Aspartate Aminotransferase; SGOT" def:Rank="4">
        <Decode>
          <TranslatedText>Aspartate Aminotransferase; SGOT</TranslatedText>
        </Decode>
      </CodeListItem>
      <CodeListItem CodedValue="Bilirubin; Total Bilirubin" def:Rank="5">
        <Decode>
          <TranslatedText>Bilirubin; Total Bilirubin</TranslatedText>
        </Decode>
      </CodeListItem>
      <CodeListItem CodedValue="Direct Bilirubin" def:Rank="6">
        <Decode>
          <TranslatedText>Direct Bilirubin</TranslatedText>
        </Decode>
      </CodeListItem>
      <CodeListItem CodedValue="Gamma Glutamyl Transferase" def:Rank="7">
        <Decode>
          <TranslatedText>Gamma Glutamyl Transferase</TranslatedText>
        </Decode>
      </CodeListItem>
      <CodeListItem CodedValue="Hematocrit" def:Rank="8">
        <Decode>
          <TranslatedText>Hematocrit</TranslatedText>
        </Decode>
      </CodeListItem>
      <CodeListItem CodedValue="Hemoglobin" def:Rank="9">
        <Decode>
          <TranslatedText>Hemoglobin</TranslatedText>
        </Decode>
      </CodeListItem>
    </CodeList>
    <CodeList OID="CodeList.LBTESTCD"
      Name="LBTESTCD"
      DataType="TEXT">
      <CodeListItem CodedValue="ALB" def:Rank="1">
        <Decode>
          <TranslatedText>Albumin; Microalbumin</TranslatedText>
        </Decode>
      </CodeListItem>
      <CodeListItem CodedValue="PROT" def:Rank="10">
        <Decode>
          <TranslatedText>Protein</TranslatedText>
        </Decode>
      </CodeListItem>
      <CodeListItem CodedValue="ALP" def:Rank="2">
        <Decode>
          <TranslatedText>Alkaline Phosphatase</TranslatedText>
        </Decode>
      </CodeListItem>
      <CodeListItem CodedValue="ALT" def:Rank="3">
        <Decode>
          <TranslatedText>Alanine Aminotransferase; SGPT</TranslatedText>
        </Decode>
      </CodeListItem>
      <CodeListItem CodedValue="AST" def:Rank="4">
        <Decode>
          <TranslatedText>Aspartate Aminotransferase; SGOT</TranslatedText>
        </Decode>
      </CodeListItem>
      <CodeListItem CodedValue="BILDIR" def:Rank="5">
        <Decode>
          <TranslatedText>Direct Bilirubin</TranslatedText>
        </Decode>
      </CodeListItem>
      <CodeListItem CodedValue="BILI" def:Rank="6">
        <Decode>
          <TranslatedText>Bilirubin; Total Bilirubin</TranslatedText>
        </Decode>
      </CodeListItem>
      <CodeListItem CodedValue="GGT" def:Rank="7">
        <Decode>
          <TranslatedText>Gamma Glutamyl Transferase</TranslatedText>
        </Decode>
      </CodeListItem>
      <CodeListItem CodedValue="HCT" def:Rank="8">
        <Decode>
          <TranslatedText>Hematocrit</TranslatedText>
        </Decode>
      </CodeListItem>
      <CodeListItem CodedValue="HGB" def:Rank="9">
        <Decode>
          <TranslatedText>Hemoglobin</TranslatedText>
        </Decode>
      </CodeListItem>
    </CodeList>
    <CodeList OID="CodeList.NY"
      Name="NY"
      DataType="TEXT">
      <CodeListItem CodedValue="N" def:Rank="1">
        <Decode>
          <TranslatedText>No</TranslatedText>
        </Decode>
      </CodeListItem>
      <CodeListItem CodedValue="NA" def:Rank="2">
        <Decode>
          <TranslatedText>NA</TranslatedText>
        </Decode>
      </CodeListItem>
      <CodeListItem CodedValue="U" def:Rank="3">
        <Decode>
          <TranslatedText>U; Unknown</TranslatedText>
        </Decode>
      </CodeListItem>
      <CodeListItem CodedValue="Y" def:Rank="4">
        <Decode>
          <TranslatedText>Yes</TranslatedText>
        </Decode>
      </CodeListItem>
    </CodeList>
    <CodeList OID="CodeList.RACE"
      Name="RACE"
      DataType="TEXT">
      <CodeListItem CodedValue="BLACK OR AFRICAN AMERICAN" def:Rank="1">
        <Decode>
          <TranslatedText>BLACK OR AFRICAN AMERICAN</TranslatedText>
        </Decode>
      </CodeListItem>
      <CodeListItem CodedValue="OTHER" def:Rank="2">
        <Decode>
          <TranslatedText>OTHER</TranslatedText>
        </Decode>
      </CodeListItem>
      <CodeListItem CodedValue="WHITE" def:Rank="3">
        <Decode>
          <TranslatedText>WHITE</TranslatedText>
        </Decode>
      </CodeListItem>
    </CodeList>
    <CodeList OID="CodeList.ROLECODE"
      Name="ROLECODE"
      DataType="TEXT">
      <CodeListItem CodedValue="Grouping Qualifier" def:Rank="1">
        <Decode>
          <TranslatedText>Grouping Qualifier</TranslatedText>
        </Decode>
      </CodeListItem>
      <CodeListItem CodedValue="Identifier" def:Rank="2">
        <Decode>
          <TranslatedText>Identifier</TranslatedText>
        </Decode>
      </CodeListItem>
      <CodeListItem CodedValue="Record Qualifier" def:Rank="3">
        <Decode>
          <TranslatedText>Record Qualifier</TranslatedText>
        </Decode>
      </CodeListItem>
      <CodeListItem CodedValue="Rule" def:Rank="4">
        <Decode>
          <TranslatedText>Rule</TranslatedText>
        </Decode>
      </CodeListItem>
      <CodeListItem CodedValue="Result Qualifier" def:Rank="5">
        <Decode>
          <TranslatedText>Result Qualifier</TranslatedText>
        </Decode>
      </CodeListItem>
      <CodeListItem CodedValue="Synonym Qualifier" def:Rank="6">
        <Decode>
          <TranslatedText>Synonym Qualifier</TranslatedText>
        </Decode>
      </CodeListItem>
      <CodeListItem CodedValue="Timing" def:Rank="7">
        <Decode>
          <TranslatedText>Timing</TranslatedText>
        </Decode>
      </CodeListItem>
      <CodeListItem CodedValue="Topic" def:Rank="8">
        <Decode>
          <TranslatedText>Topic</TranslatedText>
        </Decode>
      </CodeListItem>
    </CodeList>
    <CodeList OID="CodeList.SEX"
      Name="SEX"
      DataType="TEXT">
      <CodeListItem CodedValue="F" def:Rank="1">
        <Decode>
          <TranslatedText>FEMALE</TranslatedText>
        </Decode>
      </CodeListItem>
      <CodeListItem CodedValue="M" def:Rank="2">
        <Decode>
          <TranslatedText>MALE</TranslatedText>
        </Decode>
      </CodeListItem>
      <CodeListItem CodedValue="U" def:Rank="3">
        <Decode>
          <TranslatedText>UNKNOWN</TranslatedText>
        </Decode>
      </CodeListItem>
    </CodeList>
    <CodeList OID="CodeList.TSPARM"
      Name="TSPARM"
      DataType="TEXT">
      <CodeListItem CodedValue="Added on to Existing Treatments" def:Rank="1">
        <Decode>
          <TranslatedText>Added on to Existing Treatments</TranslatedText>
        </Decode>
      </CodeListItem>
      <CodeListItem CodedValue="Route of Administration" def:Rank="10">
        <Decode>
          <TranslatedText>Route of Administration</TranslatedText>
        </Decode>
      </CodeListItem>
      <CodeListItem CodedValue="Sex of Participants" def:Rank="11">
        <Decode>
          <TranslatedText>Sex of Participants</TranslatedText>
        </Decode>
      </CodeListItem>
      <CodeListItem CodedValue="Study Stop Rules" def:Rank="12">
        <Decode>
          <TranslatedText>Study Stop Rules</TranslatedText>
        </Decode>
      </CodeListItem>
      <CodeListItem CodedValue="Trial Blinding Schema" def:Rank="13">
        <Decode>
          <TranslatedText>Trial Blinding Schema</TranslatedText>
        </Decode>
      </CodeListItem>
      <CodeListItem CodedValue="Control Type" def:Rank="14">
        <Decode>
          <TranslatedText>Control Type</TranslatedText>
        </Decode>
      </CodeListItem>
      <CodeListItem CodedValue="Diagnosis Group" def:Rank="15">
        <Decode>
          <TranslatedText>Diagnosis Group</TranslatedText>
        </Decode>
      </CodeListItem>
      <CodeListItem CodedValue="Trial Indication Type" def:Rank="16">
        <Decode>
          <TranslatedText>Trial Indication Type</TranslatedText>
        </Decode>
      </CodeListItem>
      <CodeListItem CodedValue="Trial Title" def:Rank="17">
        <Decode>
          <TranslatedText>Trial Title</TranslatedText>
        </Decode>
      </CodeListItem>
      <CodeListItem CodedValue="Trial Phase Classification" def:Rank="18">
        <Decode>
          <TranslatedText>Trial Phase Classification</TranslatedText>
        </Decode>
      </CodeListItem>
      <CodeListItem CodedValue="Trial Type" def:Rank="19">
        <Decode>
          <TranslatedText>Trial Type</TranslatedText>
        </Decode>
      </CodeListItem>
      <CodeListItem CodedValue="Planned Maximum Age of Subjects" def:Rank="2">
        <Decode>
          <TranslatedText>Planned Maximum Age of Subjects</TranslatedText>
        </Decode>
      </CodeListItem>
      <CodeListItem CodedValue="Current Therapy or Treatment" def:Rank="20">
        <Decode>
          <TranslatedText>Current Therapy or Treatment</TranslatedText>
        </Decode>
      </CodeListItem>
      <CodeListItem CodedValue="Trial Primary Objective" def:Rank="21">
        <Decode>
          <TranslatedText>Trial Primary Objective</TranslatedText>
        </Decode>
      </CodeListItem>
      <CodeListItem CodedValue="Trial Secondary Objective" def:Rank="22">
        <Decode>
          <TranslatedText>Trial Secondary Objective</TranslatedText>
        </Decode>
      </CodeListItem>
      <CodeListItem CodedValue="Clinical Study Sponsor" def:Rank="23">
        <Decode>
          <TranslatedText>Clinical Study Sponsor; Study Sponsor; Sponsor</TranslatedText>
        </Decode>
      </CodeListItem>
      <CodeListItem CodedValue="Comparative Treatment Name" def:Rank="24">
        <Decode>
          <TranslatedText>Comparative Treatment Name</TranslatedText>
        </Decode>
      </CodeListItem>
      <CodeListItem CodedValue="Dose Units" def:Rank="25">
        <Decode>
          <TranslatedText>Dose Units</TranslatedText>
        </Decode>
      </CodeListItem>
      <CodeListItem CodedValue="Dosing Frequency" def:Rank="26">
        <Decode>
          <TranslatedText>Dosing Frequency</TranslatedText>
        </Decode>
      </CodeListItem>
      <CodeListItem CodedValue="Trial Indication" def:Rank="27">
        <Decode>
          <TranslatedText>Trial Indication</TranslatedText>
        </Decode>
      </CodeListItem>
      <CodeListItem CodedValue="Investigational Therapy or Treatment" def:Rank="28">
        <Decode>
          <TranslatedText>Investigational Therapy or Treatment</TranslatedText>
        </Decode>
      </CodeListItem>
      <CodeListItem CodedValue="Ratio for Randomization" def:Rank="29">
        <Decode>
          <TranslatedText>Ratio for Randomization</TranslatedText>
        </Decode>
      </CodeListItem>
      <CodeListItem CodedValue="Planned Minimum Age of Subjects" def:Rank="3">
        <Decode>
          <TranslatedText>Planned Minimum Age of Subjects</TranslatedText>
        </Decode>
      </CodeListItem>
      <CodeListItem CodedValue="RANDSTR" def:Rank="30">
        <Decode>
          <TranslatedText>Stratification for Randomization</TranslatedText>
        </Decode>
      </CodeListItem>
      <CodeListItem CodedValue="Stratification for Randomization" def:Rank="30">
        <Decode>
          <TranslatedText>Stratification for Randomization</TranslatedText>
        </Decode>
      </CodeListItem>
      <CodeListItem CodedValue="Age Group" def:Rank="4">
        <Decode>
          <TranslatedText>Age Group</TranslatedText>
        </Decode>
      </CodeListItem>
      <CodeListItem CodedValue="Age Unit" def:Rank="5">
        <Decode>
          <TranslatedText>Age Unit</TranslatedText>
        </Decode>
      </CodeListItem>
      <CodeListItem CodedValue="Dose per Administration" def:Rank="6">
        <Decode>
          <TranslatedText>Dose per Administration</TranslatedText>
        </Decode>
      </CodeListItem>
      <CodeListItem CodedValue="Trial Length" def:Rank="7">
        <Decode>
          <TranslatedText>Trial Length</TranslatedText>
        </Decode>
      </CodeListItem>
      <CodeListItem CodedValue="Planned Number of Subjects" def:Rank="8">
        <Decode>
          <TranslatedText>Planned Number of Subjects</TranslatedText>
        </Decode>
      </CodeListItem>
      <CodeListItem CodedValue="Trial is Randomized" def:Rank="9">
        <Decode>
          <TranslatedText>Trial is Randomized</TranslatedText>
        </Decode>
      </CodeListItem>
    </CodeList>
    <CodeList OID="CodeList.TSPARMCD"
      Name="TSPARMCD"
      DataType="TEXT">
      <CodeListItem CodedValue="ADDON" def:Rank="1">
        <Decode>
          <TranslatedText>Added on to Existing Treatments</TranslatedText>
        </Decode>
      </CodeListItem>
      <CodeListItem CodedValue="ROUTE" def:Rank="10">
        <Decode>
          <TranslatedText>Route of Administration</TranslatedText>
        </Decode>
      </CodeListItem>
      <CodeListItem CodedValue="SEXPOP" def:Rank="11">
        <Decode>
          <TranslatedText>Sex of Participants</TranslatedText>
        </Decode>
      </CodeListItem>
      <CodeListItem CodedValue="STOPRULE" def:Rank="12">
        <Decode>
          <TranslatedText>Study Stop Rules</TranslatedText>
        </Decode>
      </CodeListItem>
      <CodeListItem CodedValue="TBLIND" def:Rank="13">
        <Decode>
          <TranslatedText>Trial Blinding Schema</TranslatedText>
        </Decode>
      </CodeListItem>
      <CodeListItem CodedValue="TCNTRL" def:Rank="14">
        <Decode>
          <TranslatedText>Control Type</TranslatedText>
        </Decode>
      </CodeListItem>
      <CodeListItem CodedValue="TDIGRP" def:Rank="15">
        <Decode>
          <TranslatedText>Diagnosis Group</TranslatedText>
        </Decode>
      </CodeListItem>
      <CodeListItem CodedValue="TINDTP" def:Rank="16">
        <Decode>
          <TranslatedText>Trial Indication Type</TranslatedText>
        </Decode>
      </CodeListItem>
      <CodeListItem CodedValue="TITLE" def:Rank="17">
        <Decode>
          <TranslatedText>Trial Title</TranslatedText>
        </Decode>
      </CodeListItem>
      <CodeListItem CodedValue="TPHASE" def:Rank="18">
        <Decode>
          <TranslatedText>Trial Phase Classification</TranslatedText>
        </Decode>
      </CodeListItem>
      <CodeListItem CodedValue="TTYPE" def:Rank="19">
        <Decode>
          <TranslatedText>Trial Type</TranslatedText>
        </Decode>
      </CodeListItem>
      <CodeListItem CodedValue="AGEMAX" def:Rank="2">
        <Decode>
          <TranslatedText>Planned Maximum Age of Subjects</TranslatedText>
        </Decode>
      </CodeListItem>
      <CodeListItem CodedValue="CURTRT" def:Rank="20">
        <Decode>
          <TranslatedText>Current Therapy or Treatment</TranslatedText>
        </Decode>
      </CodeListItem>
      <CodeListItem CodedValue="OBJPRIM" def:Rank="21">
        <Decode>
          <TranslatedText>Trial Primary Objective</TranslatedText>
        </Decode>
      </CodeListItem>
      <CodeListItem CodedValue="OBJSEC" def:Rank="22">
        <Decode>
          <TranslatedText>Trial Secondary Objective</TranslatedText>
        </Decode>
      </CodeListItem>
      <CodeListItem CodedValue="SPONSOR" def:Rank="23">
        <Decode>
          <TranslatedText>Clinical Study Sponsor; Study Sponsor; Sponsor</TranslatedText>
        </Decode>
      </CodeListItem>
      <CodeListItem CodedValue="COMPTRT" def:Rank="24">
        <Decode>
          <TranslatedText>Comparative Treatment Name</TranslatedText>
        </Decode>
      </CodeListItem>
      <CodeListItem CodedValue="DOSU" def:Rank="25">
        <Decode>
          <TranslatedText>Dose Units</TranslatedText>
        </Decode>
      </CodeListItem>
      <CodeListItem CodedValue="DOSFRQ" def:Rank="26">
        <Decode>
          <TranslatedText>Dosing Frequency</TranslatedText>
        </Decode>
      </CodeListItem>
      <CodeListItem CodedValue="INDIC" def:Rank="27">
        <Decode>
          <TranslatedText>Trial Indication</TranslatedText>
        </Decode>
      </CodeListItem>
      <CodeListItem CodedValue="TRT" def:Rank="28">
        <Decode>
          <TranslatedText>Investigational Therapy or Treatment</TranslatedText>
        </Decode>
      </CodeListItem>
      <CodeListItem CodedValue="RANDRAT" def:Rank="29">
        <Decode>
          <TranslatedText>Ratio for Randomization</TranslatedText>
        </Decode>
      </CodeListItem>
      <CodeListItem CodedValue="AGEMIN" def:Rank="3">
        <Decode>
          <TranslatedText>Planned Minimum Age of Subjects</TranslatedText>
        </Decode>
      </CodeListItem>
      <CodeListItem CodedValue="AGESPAN" def:Rank="4">
        <Decode>
          <TranslatedText>Age Span</TranslatedText>
        </Decode>
      </CodeListItem>
      <CodeListItem CodedValue="AGEU" def:Rank="5">
        <Decode>
          <TranslatedText>Age Unit</TranslatedText>
        </Decode>
      </CodeListItem>
      <CodeListItem CodedValue="DOSE" def:Rank="6">
        <Decode>
          <TranslatedText>Dose per Administration</TranslatedText>
        </Decode>
      </CodeListItem>
      <CodeListItem CodedValue="LENGTH" def:Rank="7">
        <Decode>
          <TranslatedText>Trial Length</TranslatedText>
        </Decode>
      </CodeListItem>
      <CodeListItem CodedValue="PLANSUB" def:Rank="8">
        <Decode>
          <TranslatedText>Planned Number of Subjects</TranslatedText>
        </Decode>
      </CodeListItem>
      <CodeListItem CodedValue="RANDOM" def:Rank="9">
        <Decode>
          <TranslatedText>Trial is Randomized</TranslatedText>
        </Decode>
      </CodeListItem>
    </CodeList>
    <CodeList OID="CodeList.UNIT"
      Name="UNIT"
      DataType="TEXT">
      <CodeListItem CodedValue="%" def:Rank="1">
        <Decode>
          <TranslatedText>Percentage</TranslatedText>
        </Decode>
      </CodeListItem>
      <CodeListItem CodedValue="g/dL" def:Rank="2">
        <Decode>
          <TranslatedText>Gram per Deciliter</TranslatedText>
        </Decode>
      </CodeListItem>
      <CodeListItem CodedValue="IU/L" def:Rank="3">
        <Decode>
          <TranslatedText>International Unit per Liter</TranslatedText>
        </Decode>
      </CodeListItem>
      <CodeListItem CodedValue="mg/dL" def:Rank="4">
        <Decode>
          <TranslatedText>Milligram per Deciliter</TranslatedText>
        </Decode>
      </CodeListItem>
      <CodeListItem CodedValue="mg" def:Rank="5">
        <Decode>
          <TranslatedText>Milligram</TranslatedText>
        </Decode>
      </CodeListItem>
    </CodeList>
    <CodeList OID="CodeList.VISIT"
      Name="VISIT"
      DataType="TEXT">
      <CodeListItem CodedValue="Baseline" def:Rank="1">
        <Decode>
          <TranslatedText>Baseline</TranslatedText>
        </Decode>
      </CodeListItem>
      <CodeListItem CodedValue="3 Months" def:Rank="2">
        <Decode>
          <TranslatedText>Month 3</TranslatedText>
        </Decode>
      </CodeListItem>
      <CodeListItem CodedValue="6 Months" def:Rank="3">
        <Decode>
          <TranslatedText>Month 6</TranslatedText>
        </Decode>
      </CodeListItem>
    </CodeList>
  </MetaDataVersion>
</Study>
</ODM>
